TITLE,H_1mM_2
DATA TYPE,
ORIGIN,JASCO
OWNER,
DATE,22/10/27
TIME,13:23:20
SPECTROMETER/DATA SYSTEM,
LOCALE,1033
RESOLUTION,
DELTAX,-0.5
XUNITS,NANOMETERS
YUNITS,CD [mdeg]
Y2UNITS,LD [dOD]
Y3UNITS,ABSORBANCE
Y4UNITS,HT [V]
FIRSTX,  290.0000
LASTX,  190.0000
NPOINTS,     201
FIRSTY,     0.05474
MAXY,     9.33368
MINY,    -0.21836
XYDATA
290.0000,0.0547422,-0.000191153,0.010325,-76.1793
289.5000,0.0162425,-0.000187408,0.0116938,-76.1755
289.0000,-0.0569073,-0.000188804,0.0128841,-76.1671
288.5000,-0.179572,-0.000188448,0.0145906,-76.1551
288.0000,-0.170871,-0.00017826,0.0161547,-76.1502
287.5000,-0.218357,-0.000175891,0.0177051,-76.1404
287.0000,-0.148223,-0.000171536,0.0197114,-76.1292
286.5000,-0.111445,-0.000173362,0.0220104,-76.1313
286.0000,-0.0131721,-0.000175407,0.0241657,-76.1308
285.5000,0.0499774,-0.000172067,0.0267448,-76.1293
285.0000,0.134119,-0.000173083,0.0287312,-76.1287
284.5000,0.124037,-0.00017716,0.0313696,-76.1311
284.0000,0.116053,-0.000182828,0.0335017,-76.1408
283.5000,0.0698796,-0.000188242,0.0352646,-76.1402
283.0000,0.0942832,-0.000188748,0.037008,-76.1353
282.5000,0.110007,-0.000185211,0.0384203,-76.1365
282.0000,0.043428,-0.000193605,0.0396073,-76.1468
281.5000,-0.0409061,-0.00018511,0.0407343,-76.1431
281.0000,0.0824516,-0.000183977,0.0412281,-76.1441
280.5000,0.0933113,-0.000180801,0.0418143,-76.1377
280.0000,0.107701,-0.000184767,0.0423036,-76.1415
279.5000,-0.0297429,-0.000184922,0.0427202,-76.1486
279.0000,-0.110649,-0.000185753,0.0435238,-76.1456
278.5000,-0.0476001,-0.000190131,0.0444163,-76.1376
278.0000,0.047573,-0.000191952,0.0451048,-76.14
277.5000,0.0221409,-0.000191367,0.0461384,-76.1338
277.0000,0.140619,-0.000187112,0.0473677,-76.1371
276.5000,0.121396,-0.000185968,0.0481904,-76.129
276.0000,0.202257,-0.000183073,0.0484513,-76.1264
275.5000,0.143253,-0.000187226,0.0488361,-76.1386
275.0000,0.134925,-0.000199087,0.0490712,-76.1461
274.5000,0.0722009,-0.000201008,0.0492245,-76.1461
274.0000,0.0295716,-0.000208271,0.0492438,-76.1428
273.5000,-0.00797934,-0.000217048,0.0491287,-76.1483
273.0000,0.0465685,-0.000213889,0.0489325,-76.1639
272.5000,0.135623,-0.000209687,0.0485134,-76.1739
272.0000,0.128312,-0.000198561,0.04812,-76.1779
271.5000,0.0966852,-0.000196021,0.0474999,-76.1818
271.0000,0.143367,-0.000190784,0.0470523,-76.188
270.5000,0.0292393,-0.000192954,0.0463452,-76.1936
270.0000,0.0808295,-0.000190983,0.0456794,-76.1953
269.5000,-0.0296269,-0.000193833,0.0451822,-76.184
269.0000,-0.00419291,-0.000193534,0.0445511,-76.1806
268.5000,-0.00189942,-0.000197412,0.0439757,-76.1782
268.0000,0.0351177,-0.000196253,0.0432692,-76.1782
267.5000,0.076882,-0.000201062,0.0425215,-76.1719
267.0000,0.109511,-0.000198655,0.0418776,-76.1775
266.5000,0.0112065,-0.000196187,0.0413054,-76.1697
266.0000,0.0146501,-0.000193253,0.0407381,-76.169
265.5000,-0.0436057,-0.00019509,0.0400042,-76.1609
265.0000,0.0053712,-0.00019682,0.0391538,-76.1536
264.5000,0.0375718,-0.000208126,0.0384553,-76.1564
264.0000,0.0425944,-0.000205106,0.0377738,-76.1577
263.5000,0.0662725,-0.00021092,0.0370326,-76.1608
263.0000,0.0844382,-0.000210585,0.0363056,-76.1673
262.5000,0.23799,-0.000219102,0.0357017,-76.1665
262.0000,0.175311,-0.000218424,0.0352673,-76.1709
261.5000,0.127268,-0.000220775,0.0347541,-76.1765
261.0000,0.128858,-0.000214819,0.0340315,-76.1743
260.5000,0.114163,-0.000207429,0.0335563,-76.1733
260.0000,0.143403,-0.000210576,0.0332321,-76.1716
259.5000,0.0915771,-0.000205371,0.0329211,-76.1691
259.0000,0.0864387,-0.000207023,0.0322858,-76.1688
258.5000,0.136861,-0.000202482,0.0319915,-76.1664
258.0000,0.245731,-0.000209972,0.0315994,-76.163
257.5000,0.264624,-0.000205,0.0313054,-76.1612
257.0000,0.250967,-0.000213431,0.0309531,-76.1654
256.5000,0.333672,-0.000221757,0.0302477,-76.1654
256.0000,0.288696,-0.000227126,0.0299104,-76.1649
255.5000,0.431458,-0.000240545,0.0294892,-76.1665
255.0000,0.323999,-0.000247722,0.0288634,-76.1698
254.5000,0.350283,-0.000256086,0.028489,-76.1801
254.0000,0.367237,-0.000260205,0.0280126,-76.1697
253.5000,0.384555,-0.000257688,0.0274235,-76.1651
253.0000,0.433764,-0.000257567,0.0269469,-76.1639
252.5000,0.336623,-0.000250364,0.0266203,-76.1656
252.0000,0.264454,-0.000244987,0.0263881,-76.1636
251.5000,0.148174,-0.000246817,0.0259449,-76.1612
251.0000,0.21421,-0.000243203,0.0258733,-76.1632
250.5000,0.0744383,-0.000246747,0.0258387,-76.1751
250.0000,0.0160741,-0.000248832,0.0262264,-76.1777
249.5000,-0.0358428,-0.000255839,0.0265767,-76.1808
249.0000,-0.0171125,-0.000254847,0.0267992,-76.1814
248.5000,0.046316,-0.000255617,0.0270722,-76.182
248.0000,0.0585687,-0.000253776,0.0272457,-76.1885
247.5000,0.021875,-0.000249591,0.027134,-76.1959
247.0000,0.0731243,-0.000241633,0.0274223,-76.1991
246.5000,0.107481,-0.000244025,0.0274479,-76.2023
246.0000,0.0435836,-0.000240055,0.027728,-76.2025
245.5000,0.0306412,-0.00024607,0.0279219,-76.2089
245.0000,-0.0475658,-0.000252903,0.0283138,-76.2065
244.5000,0.0220107,-0.000248886,0.0290852,-76.2011
244.0000,0.0281439,-0.000256722,0.0300266,-76.1904
243.5000,-0.0130313,-0.000256209,0.0308246,-76.1885
243.0000,0.0482976,-0.000251869,0.0317388,-76.1864
242.5000,0.160086,-0.000249439,0.0328378,-76.1843
242.0000,0.204618,-0.000244891,0.0340692,-76.1786
241.5000,0.23554,-0.0002409,0.0356986,-76.1691
241.0000,0.34641,-0.000236048,0.0377244,-76.1597
240.5000,0.476267,-0.000236119,0.0402101,-76.1566
240.0000,0.474105,-0.000236879,0.0430233,-76.1537
239.5000,0.566902,-0.000236809,0.0467075,-76.1488
239.0000,0.645735,-0.000243554,0.0507176,-76.1435
238.5000,0.602607,-0.000248929,0.0554268,-76.1501
238.0000,0.768345,-0.000251112,0.0605207,-76.1593
237.5000,0.777391,-0.000251039,0.0657954,-76.1765
237.0000,0.764829,-0.000251188,0.0716084,-76.1823
236.5000,0.962988,-0.000259344,0.0787652,-76.1897
236.0000,1.15288,-0.000257673,0.0866795,-76.1971
235.5000,1.26221,-0.00026216,0.0957513,-76.2074
235.0000,1.4348,-0.00026552,0.10483,-76.2122
234.5000,1.55046,-0.000266604,0.114521,-76.2158
234.0000,1.73732,-0.000275351,0.126178,-76.2086
233.5000,1.96007,-0.000273294,0.140438,-76.1951
233.0000,2.03243,-0.000285628,0.152915,-76.1866
232.5000,2.15153,-0.000291146,0.163358,-76.1837
232.0000,2.22591,-0.000292607,0.173341,-76.1794
231.5000,2.3918,-0.000306188,0.186819,-76.1721
231.0000,2.47973,-0.000311359,0.1998,-76.1645
230.5000,2.66131,-0.000321592,0.213255,-76.1693
230.0000,2.71917,-0.00032859,0.22707,-76.1749
229.5000,2.95584,-0.000329196,0.239255,-76.1784
229.0000,3.14367,-0.000330211,0.250988,-76.1838
228.5000,3.34993,-0.000345155,0.263139,-76.1856
228.0000,3.54843,-0.000350373,0.274903,-76.1896
227.5000,3.58091,-0.000353142,0.285673,-76.1862
227.0000,3.76907,-0.000367401,0.295975,-76.1859
226.5000,3.78968,-0.000371504,0.305071,-76.1896
226.0000,3.82081,-0.000390692,0.31454,-76.1914
225.5000,3.64629,-0.000402922,0.323153,-76.1895
225.0000,3.48389,-0.000406727,0.330431,-76.1921
224.5000,3.60172,-0.000406972,0.337948,-76.1932
224.0000,3.62721,-0.000405136,0.344643,-76.2003
223.5000,3.64332,-0.000418843,0.350099,-76.1965
223.0000,3.53012,-0.000417423,0.355146,-76.1935
222.5000,3.52897,-0.000396268,0.360056,-76.1912
222.0000,3.5633,-0.000397548,0.365125,-76.193
221.5000,3.61008,-0.000414541,0.369317,-76.1943
221.0000,3.52911,-0.000424617,0.373442,-76.1907
220.5000,3.40366,-0.000428619,0.377735,-76.1905
220.0000,3.27298,-0.000438045,0.381662,-76.1943
219.5000,3.17979,-0.00044129,0.385723,-76.1972
219.0000,3.05832,-0.00045453,0.3903,-76.2004
218.5000,3.02469,-0.000456707,0.3951,-76.2028
218.0000,3.01691,-0.000455689,0.399813,-76.2061
217.5000,2.99304,-0.000449953,0.405057,-76.2072
217.0000,3.03457,-0.000461482,0.410128,-76.1993
216.5000,3.00173,-0.000460806,0.415722,-76.1991
216.0000,3.09131,-0.00047275,0.421575,-76.194
215.5000,3.05337,-0.000476238,0.428372,-76.1928
215.0000,3.0347,-0.000479547,0.435853,-76.1876
214.5000,3.10489,-0.000495422,0.443396,-76.1905
214.0000,2.96565,-0.000507488,0.451279,-76.1876
213.5000,2.79924,-0.000509489,0.46082,-76.1868
213.0000,2.87909,-0.00052436,0.470679,-76.1832
212.5000,2.92124,-0.000527426,0.48055,-76.1868
212.0000,3.01486,-0.000521173,0.49174,-76.1871
211.5000,3.0319,-0.000533274,0.503157,-76.1744
211.0000,2.97849,-0.000549292,0.515535,-76.1642
210.5000,3.05293,-0.000558947,0.530562,-76.1602
210.0000,3.13034,-0.000563365,0.546754,-76.1522
209.5000,3.05354,-0.000556516,0.563967,-76.1422
209.0000,3.04828,-0.000570865,0.583754,-76.1318
208.5000,2.91762,-0.000561606,0.604229,-76.1299
208.0000,3.01024,-0.000553589,0.62688,-76.1365
207.5000,2.80719,-0.000561315,0.653103,-76.1383
207.0000,2.63682,-0.00055967,0.683284,-76.142
206.5000,2.55648,-0.000585432,0.713471,-76.1584
206.0000,2.5242,-0.000593178,0.744636,-76.1759
205.5000,2.26954,-0.00060484,0.784102,-76.2088
205.0000,2.29723,-0.000640653,0.820988,-76.2362
204.5000,2.14613,-0.000662741,0.865015,-76.2631
204.0000,2.14358,-0.000683817,0.909989,-76.2874
203.5000,1.92587,-0.000703419,0.959874,-76.3238
203.0000,1.86762,-0.000714783,1.01172,-76.3582
202.5000,1.60935,-0.000720876,1.06253,-76.3807
202.0000,1.19641,-0.00074181,1.11341,-76.3986
201.5000,0.937057,-0.000739555,1.16558,-76.4251
201.0000,0.830135,-0.00076534,1.21513,-76.4476
200.5000,0.646679,-0.000789336,1.26062,-76.461
200.0000,0.507286,-0.000836467,1.30091,-76.4853
199.5000,0.549676,-0.000833231,1.33613,-76.5044
199.0000,0.797326,-0.000834295,1.36334,-76.5126
198.5000,0.80625,-0.000848209,1.38254,-76.5208
198.0000,1.092,-0.00079313,1.39305,-76.5213
197.5000,1.08798,-0.000720894,1.39589,-76.5122
197.0000,0.971853,-0.000597191,1.38971,-76.5034
196.5000,0.888929,-0.000436001,1.37553,-76.4969
196.0000,0.654889,-0.000212473,1.35233,-76.5041
195.5000,0.964287,7.38775E-005,1.32265,-76.4999
195.0000,1.19732,0.000475382,1.28087,-76.4954
194.5000,1.8761,0.00104541,1.22894,-76.5042
194.0000,2.61233,0.00171757,1.1725,-76.5025
193.5000,3.34747,0.00250443,1.11451,-76.493
193.0000,4.38486,0.00346414,1.0531,-76.5008
192.5000,5.52464,0.00459365,0.992245,-76.5201
192.0000,6.25356,0.00568649,0.942609,-76.5324
191.5000,7.03278,0.00673382,0.901903,-76.5465
191.0000,8.05413,0.0077712,0.869465,-76.5485
190.5000,8.67182,0.0086114,0.850369,-76.5398
190.0000,9.33368,0.00926365,0.841673,-76.5196

##### Extended Information
[Comments]
Sample name,H_1mM_2
Comment
User
Division
Company,CUNY

[Detailed Information]
Creation date,10/27/2022 12:23 PM

Data array type,Linear data array * 4
Horizontal axis,Wavelength [nm]
Vertical axis(1),CD [mdeg]
Vertical axis(2),LD [dOD]
Vertical axis(3),Abs
Vertical axis(4),HT [V]
Start,290 nm
End,190 nm
Data interval,0.5 nm
Data points,201     

[Measurement Information]
Instrument name,Jasco J-1500 CD
Model name,J-1500
Serial No.,A009361638

Detector,PM-539
Detector S/N,A0093PM539
  Lock-in amp.,X mode
  HT volt,Auto

Detector,FDT-538
Detector S/N,A002061637
  Lock-in amp.,X mode
  HT volt,0 V

Accessory,PTC-517
Accessory S/N,A005061646
  Temperature,25.01 C
  Control sonsor,Holder
  Monitor sensor,Holder
  Start Mode,Keep target temperature +/-0.50 deg C while 10 seconds
  Timeout,1 sec

Measurement date,10/27/2022 12:23 PM

Overload detect,126
Photometric mode,CD, LD, Abs, HT(FL)
Measure range,290 - 190 nm
Data pitch,0.5 nm
CD scale,20 mdeg/0.05 dOD
FL scale,20 mdeg/0.05 dOD
D.I.T.,2 sec
Bandwidth,1.00 nm
Start mode,Immediately
Scanning speed,100 nm/min
Baseline correction,Baseline
Shutter control,Auto
Accumulations,3


