TITLE,H_2mM_3
DATA TYPE,
ORIGIN,JASCO
OWNER,
DATE,22/10/27
TIME,17:04:57
SPECTROMETER/DATA SYSTEM,
LOCALE,1033
RESOLUTION,
DELTAX,-0.5
XUNITS,NANOMETERS
YUNITS,CD [mdeg]
Y2UNITS,LD [dOD]
Y3UNITS,ABSORBANCE
Y4UNITS,HT [V]
FIRSTX,  290.0000
LASTX,  190.0000
NPOINTS,     201
FIRSTY,     0.50382
MAXY,     8.34383
MINY,    -0.22687
XYDATA
290.0000,0.503817,1.06215E-005,0.0468099,-75.925
289.5000,0.435875,1.96443E-005,0.0487117,-75.9329
289.0000,0.324016,2.90837E-005,0.0503714,-75.9539
288.5000,0.229353,2.63419E-005,0.0525895,-75.975
288.0000,0.18733,2.98893E-005,0.0548703,-75.9983
287.5000,0.18457,3.82831E-005,0.0572857,-75.9996
287.0000,0.158321,4.83735E-005,0.0599855,-76.0122
286.5000,0.140861,5.55731E-005,0.0631202,-76.0237
286.0000,0.18987,5.70037E-005,0.066001,-76.0244
285.5000,0.290278,5.73347E-005,0.0692705,-76.028
285.0000,0.281638,5.04435E-005,0.0721801,-76.0282
284.5000,0.30356,5.3735E-005,0.0754102,-76.0384
284.0000,0.373898,5.05015E-005,0.0783416,-76.0408
283.5000,0.359454,4.65074E-005,0.080777,-76.0508
283.0000,0.402718,4.04314E-005,0.0827848,-76.059
282.5000,0.432201,3.65473E-005,0.084434,-76.076
282.0000,0.428778,3.65719E-005,0.0859909,-76.0867
281.5000,0.391336,4.72865E-005,0.0873932,-76.0864
281.0000,0.451143,4.54856E-005,0.0881817,-76.0996
280.5000,0.489017,4.92502E-005,0.0888929,-76.1102
280.0000,0.481428,3.58972E-005,0.089677,-76.1138
279.5000,0.417197,3.66306E-005,0.0904238,-76.1066
279.0000,0.399431,3.40588E-005,0.0914778,-76.1005
278.5000,0.409,2.46995E-005,0.0924491,-76.0945
278.0000,0.446668,2.40403E-005,0.0932728,-76.0891
277.5000,0.410247,2.41516E-005,0.0945275,-76.0811
277.0000,0.443908,2.45886E-005,0.095726,-76.0734
276.5000,0.383541,3.21355E-005,0.096507,-76.0709
276.0000,0.388917,2.76136E-005,0.0967665,-76.0717
275.5000,0.363433,3.08496E-005,0.097097,-76.0646
275.0000,0.459966,2.67319E-005,0.0971844,-76.061
274.5000,0.38088,2.84609E-005,0.0971583,-76.056
274.0000,0.333795,2.97525E-005,0.096815,-76.0416
273.5000,0.329432,2.77605E-005,0.0965073,-76.0307
273.0000,0.370201,3.51197E-005,0.0961022,-76.0272
272.5000,0.308904,3.83501E-005,0.0954116,-76.0148
272.0000,0.292646,5.23898E-005,0.094612,-76.0151
271.5000,0.308627,5.23099E-005,0.0937847,-76.0153
271.0000,0.403432,5.69407E-005,0.0930903,-76.0145
270.5000,0.271467,6.31148E-005,0.0923953,-76.0229
270.0000,0.355323,5.83853E-005,0.0915612,-76.0255
269.5000,0.255041,5.3113E-005,0.0909262,-76.0259
269.0000,0.281908,5.11029E-005,0.090251,-76.0252
268.5000,0.25932,4.49595E-005,0.089587,-76.0239
268.0000,0.256888,4.30168E-005,0.0887175,-76.0277
267.5000,0.190614,4.61197E-005,0.0875158,-76.0313
267.0000,0.225956,4.55911E-005,0.0866116,-76.0294
266.5000,0.229241,4.49506E-005,0.0858755,-76.0243
266.0000,0.354376,5.01922E-005,0.0849869,-76.0185
265.5000,0.340613,4.7341E-005,0.0840026,-76.0207
265.0000,0.386581,4.07971E-005,0.0830383,-76.0146
264.5000,0.405253,2.66426E-005,0.0821051,-76.0036
264.0000,0.483798,2.19594E-005,0.0811891,-76.0017
263.5000,0.428154,1.92848E-005,0.0803172,-76.0029
263.0000,0.426467,1.9449E-005,0.0793243,-76.002
262.5000,0.563495,4.80228E-006,0.078411,-75.9983
262.0000,0.570488,5.32006E-006,0.0775869,-75.9908
261.5000,0.527562,1.25573E-005,0.0767569,-75.9975
261.0000,0.578056,2.09412E-005,0.0756921,-75.9963
260.5000,0.539544,2.58489E-005,0.0749801,-75.9972
260.0000,0.635408,3.3457E-005,0.0742773,-75.9924
259.5000,0.526717,4.14096E-005,0.0736041,-75.9913
259.0000,0.478561,4.76323E-005,0.0726829,-75.9861
258.5000,0.439182,4.98283E-005,0.0720714,-75.9819
258.0000,0.464037,4.32718E-005,0.0714223,-75.9768
257.5000,0.358552,5.10227E-005,0.0708751,-75.9713
257.0000,0.318101,4.73828E-005,0.0701573,-75.9627
256.5000,0.25149,3.45022E-005,0.0693607,-75.951
256.0000,0.250272,3.0526E-005,0.0690225,-75.9385
255.5000,0.265132,1.33828E-005,0.068551,-75.9433
255.0000,0.199225,1.26799E-005,0.0678985,-75.9302
254.5000,0.209616,1.03097E-005,0.0674571,-75.9265
254.0000,0.296523,6.38981E-006,0.0669586,-75.9149
253.5000,0.421465,4.73917E-006,0.0663353,-75.9112
253.0000,0.490346,-1.61462E-006,0.0659283,-75.9119
252.5000,0.527146,6.74833E-006,0.0655801,-75.9134
252.0000,0.470294,1.18237E-005,0.0653352,-75.9233
251.5000,0.524264,8.45054E-006,0.0649837,-75.9352
251.0000,0.510086,8.04175E-007,0.0648502,-75.949
250.5000,0.36047,-1.09317E-007,0.0646889,-75.9619
250.0000,0.351474,8.4527E-007,0.0648325,-75.9798
249.5000,0.294293,2.05083E-006,0.0648506,-75.986
249.0000,0.336361,6.98082E-006,0.0646623,-75.9918
248.5000,0.299871,5.58506E-006,0.0647413,-75.9908
248.0000,0.206022,6.53843E-006,0.0646568,-75.9933
247.5000,0.287514,5.35935E-006,0.0642783,-75.9849
247.0000,0.372623,7.69425E-006,0.0644695,-75.9758
246.5000,0.355185,2.63458E-006,0.0644649,-75.9713
246.0000,0.272442,5.94774E-009,0.0646723,-75.9713
245.5000,0.255448,-3.68647E-006,0.0650376,-75.9647
245.0000,0.239582,-1.0807E-005,0.0654561,-75.9561
244.5000,0.278346,-5.63877E-006,0.0665357,-75.9443
244.0000,0.282771,-2.85232E-006,0.0675934,-75.9393
243.5000,0.292874,-9.69232E-007,0.0685793,-75.9312
243.0000,0.350279,4.68796E-006,0.0698521,-75.9308
242.5000,0.481731,1.37471E-005,0.071338,-75.9351
242.0000,0.522848,1.67907E-005,0.0729712,-75.9411
241.5000,0.556346,1.71856E-005,0.075026,-75.9362
241.0000,0.690784,2.36709E-005,0.0775803,-75.9341
240.5000,0.705594,3.32918E-005,0.0810297,-75.9351
240.0000,0.729225,3.1261E-005,0.084458,-75.9403
239.5000,0.767234,2.37004E-005,0.088988,-75.9256
239.0000,0.768526,2.23203E-005,0.0941072,-75.9116
238.5000,0.867779,2.592E-005,0.1002,-75.9035
238.0000,0.969659,2.60491E-005,0.106819,-75.8917
237.5000,1.07804,2.6267E-005,0.113571,-75.8888
237.0000,1.1825,3.21793E-005,0.121068,-75.8794
236.5000,1.41621,3.33386E-005,0.130391,-75.8653
236.0000,1.69766,3.21098E-005,0.140788,-75.866
235.5000,1.95546,3.17703E-005,0.15263,-75.8541
235.0000,2.15052,3.39493E-005,0.164602,-75.852
234.5000,2.44948,3.23956E-005,0.177545,-75.8539
234.0000,2.72223,2.56519E-005,0.192917,-75.8522
233.5000,3.04897,1.76544E-005,0.211826,-75.8532
233.0000,3.20332,1.36811E-005,0.228408,-75.8528
232.5000,3.3757,1.74198E-005,0.242136,-75.861
232.0000,3.42847,1.4182E-005,0.255317,-75.8746
231.5000,3.64445,-1.18331E-005,0.273163,-75.8907
231.0000,3.78002,-1.36869E-005,0.290167,-75.9062
230.5000,4.01697,-2.09167E-005,0.307896,-75.9105
230.0000,4.24288,-3.51009E-005,0.326108,-75.9201
229.5000,4.42547,-4.95328E-005,0.342132,-75.9212
229.0000,4.58039,-6.6762E-005,0.357769,-75.9142
228.5000,4.76715,-7.56204E-005,0.373743,-75.9008
228.0000,4.91571,-8.45823E-005,0.389453,-75.8857
227.5000,5.02354,-0.00010041,0.403792,-75.8738
227.0000,4.94275,-9.86772E-005,0.417464,-75.8738
226.5000,4.94498,-9.63473E-005,0.42979,-75.8708
226.0000,4.83763,-9.37648E-005,0.442574,-75.8761
225.5000,4.72696,-9.804E-005,0.454326,-75.8754
225.0000,4.69993,-9.34147E-005,0.464377,-75.8796
224.5000,4.64376,-8.80169E-005,0.474763,-75.8786
224.0000,4.80301,-0.000100147,0.484287,-75.8631
223.5000,4.64492,-0.000107197,0.491949,-75.8607
223.0000,4.54826,-0.000115825,0.499034,-75.848
222.5000,4.61299,-0.000137422,0.505926,-75.8419
222.0000,4.63711,-0.000134234,0.512683,-75.8326
221.5000,4.73171,-0.000143455,0.518396,-75.8245
221.0000,4.55427,-0.000151993,0.523854,-75.8217
220.5000,4.53499,-0.000137735,0.529579,-75.8179
220.0000,4.6096,-0.000158567,0.534903,-75.8087
219.5000,4.60135,-0.0001531,0.540318,-75.8063
219.0000,4.489,-0.000158673,0.546212,-75.7976
218.5000,4.32818,-0.000173822,0.552622,-75.7847
218.0000,4.16736,-0.000176901,0.558885,-75.7798
217.5000,4.13248,-0.000184313,0.565721,-75.771
217.0000,4.1599,-0.000208092,0.572124,-75.7673
216.5000,4.07718,-0.000209634,0.57936,-75.7702
216.0000,4.25671,-0.000212785,0.587056,-75.7714
215.5000,4.33008,-0.000221967,0.596027,-75.7786
215.0000,4.24971,-0.000240553,0.605832,-75.7814
214.5000,4.25176,-0.000250625,0.615715,-75.7886
214.0000,4.28464,-0.000252578,0.626171,-75.7859
213.5000,4.24053,-0.000244205,0.638648,-75.7901
213.0000,4.331,-0.000264879,0.651593,-75.7844
212.5000,4.18779,-0.000271321,0.664609,-75.7786
212.0000,4.26609,-0.000275113,0.679237,-75.7599
211.5000,4.09236,-0.000277269,0.694159,-75.755
211.0000,3.92208,-0.000279074,0.710248,-75.74
210.5000,3.8794,-0.000280862,0.72971,-75.7284
210.0000,3.65512,-0.000270927,0.751004,-75.7243
209.5000,3.61262,-0.000261978,0.773472,-75.7148
209.0000,3.41222,-0.000259432,0.799415,-75.7158
208.5000,3.40967,-0.00027083,0.826448,-75.7079
208.0000,3.41254,-0.000258464,0.856222,-75.7005
207.5000,3.38098,-0.000284568,0.890869,-75.7028
207.0000,3.19082,-0.00030753,0.931058,-75.6871
206.5000,2.96934,-0.000353581,0.971092,-75.6718
206.0000,2.79762,-0.000357127,1.01228,-75.657
205.5000,2.56097,-0.000386113,1.06448,-75.6368
205.0000,2.57791,-0.000424182,1.11305,-75.625
204.5000,2.35888,-0.000481852,1.17052,-75.6105
204.0000,2.33449,-0.000547714,1.22863,-75.6039
203.5000,1.51885,-0.000610768,1.29289,-75.6024
203.0000,1.42737,-0.000639595,1.35947,-75.5957
202.5000,1.36516,-0.000691485,1.42427,-75.5972
202.0000,1.01225,-0.000725415,1.48917,-75.598
201.5000,0.601545,-0.00075505,1.55636,-75.6042
201.0000,0.257237,-0.00077452,1.6207,-75.6086
200.5000,0.347391,-0.000790636,1.6806,-75.6136
200.0000,0.302963,-0.000810326,1.73457,-75.6154
199.5000,0.191974,-0.000797615,1.78378,-75.6235
199.0000,0.0667908,-0.000741448,1.82426,-75.6327
198.5000,0.0628633,-0.000703885,1.85555,-75.6344
198.0000,-0.226868,-0.000653328,1.87628,-75.6284
197.5000,-0.0235956,-0.000526591,1.8884,-75.6198
197.0000,0.141548,-0.000382857,1.88971,-75.6069
196.5000,0.33544,-0.000219788,1.88015,-75.59
196.0000,0.314678,-5.39951E-005,1.85891,-75.5747
195.5000,0.595634,0.000208078,1.82848,-75.5657
195.0000,1.20576,0.000591834,1.78326,-75.5573
194.5000,1.61159,0.00114072,1.72555,-75.5581
194.0000,2.28241,0.0017788,1.66115,-75.5676
193.5000,3.01808,0.00255264,1.59396,-75.5762
193.0000,4.40168,0.0035022,1.52118,-75.5798
192.5000,5.04704,0.00458337,1.44734,-75.5884
192.0000,5.69742,0.00558039,1.38444,-75.5825
191.5000,6.324,0.0066018,1.32991,-75.5736
191.0000,7.11926,0.00756343,1.28207,-75.5652
190.5000,7.46473,0.0083537,1.24892,-75.5518
190.0000,8.34383,0.00894299,1.22644,-75.546

##### Extended Information
[Comments]
Sample name,H_2mM_3
Comment
User
Division
Company,CUNY

[Detailed Information]
Creation date,10/27/2022 4:04 PM

Data array type,Linear data array * 4
Horizontal axis,Wavelength [nm]
Vertical axis(1),CD [mdeg]
Vertical axis(2),LD [dOD]
Vertical axis(3),Abs
Vertical axis(4),HT [V]
Start,290 nm
End,190 nm
Data interval,0.5 nm
Data points,201     

[Measurement Information]
Instrument name,Jasco J-1500 CD
Model name,J-1500
Serial No.,A009361638

Detector,PM-539
Detector S/N,A0093PM539
  Lock-in amp.,X mode
  HT volt,Auto

Detector,FDT-538
Detector S/N,A002061637
  Lock-in amp.,X mode
  HT volt,0 V

Accessory,PTC-517
Accessory S/N,A005061646
  Temperature,25.02 C
  Control sonsor,Holder
  Monitor sensor,Holder
  Start Mode,Keep target temperature +/-0.50 deg C while 10 seconds
  Timeout,1 sec

Measurement date,10/27/2022 4:04 PM

Overload detect,121
Photometric mode,CD, LD, Abs, HT(FL)
Measure range,290 - 190 nm
Data pitch,0.5 nm
CD scale,20 mdeg/0.05 dOD
FL scale,20 mdeg/0.05 dOD
D.I.T.,2 sec
Bandwidth,1.00 nm
Start mode,Immediately
Scanning speed,100 nm/min
Baseline correction,Baseline
Shutter control,Auto
Accumulations,3


