TITLE,H_02mM_3
DATA TYPE,
ORIGIN,JASCO
OWNER,
DATE,22/10/27
TIME,17:25:26
SPECTROMETER/DATA SYSTEM,
LOCALE,1033
RESOLUTION,
DELTAX,-0.5
XUNITS,NANOMETERS
YUNITS,CD [mdeg]
Y2UNITS,LD [dOD]
Y3UNITS,ABSORBANCE
Y4UNITS,HT [V]
FIRSTX,  290.0000
LASTX,  190.0000
NPOINTS,     201
FIRSTY,     0.48797
MAXY,     9.53069
MINY,     0.04588
XYDATA
290.0000,0.487968,0.000319171,-0.00604562,-75.8109
289.5000,0.486431,0.000321721,-0.00538385,-75.8205
289.0000,0.409098,0.000320686,-0.00520063,-75.8284
288.5000,0.327916,0.000310858,-0.00473939,-75.8362
288.0000,0.293993,0.000311368,-0.00445543,-75.8425
287.5000,0.236626,0.000312952,-0.00408785,-75.8467
287.0000,0.233029,0.000316903,-0.00353527,-75.8418
286.5000,0.2764,0.000315007,-0.00298664,-75.8414
286.0000,0.241543,0.000313215,-0.00254929,-75.8315
285.5000,0.320501,0.000314931,-0.00179512,-75.8276
285.0000,0.321756,0.000317459,-0.00150668,-75.828
284.5000,0.326315,0.000316204,-0.00084127,-75.8264
284.0000,0.407396,0.000304583,-0.000255594,-75.8328
283.5000,0.440048,0.000299776,0.000157579,-75.8446
283.0000,0.479312,0.000304512,0.000732328,-75.8514
282.5000,0.490353,0.000306658,0.00124051,-75.861
282.0000,0.397745,0.000301995,0.00182664,-75.8686
281.5000,0.420463,0.000313417,0.00239505,-75.8869
281.0000,0.451631,0.000320362,0.00271012,-75.8879
280.5000,0.474773,0.000331366,0.00291557,-75.8872
280.0000,0.450467,0.00032309,0.0030854,-75.8819
279.5000,0.402909,0.000322291,0.00319757,-75.8919
279.0000,0.417887,0.000323934,0.00354501,-75.8916
278.5000,0.501465,0.000323997,0.00392943,-75.8858
278.0000,0.532994,0.000314338,0.00417629,-75.8924
277.5000,0.435674,0.000311221,0.00469643,-75.8898
277.0000,0.483715,0.000305628,0.00523511,-75.8873
276.5000,0.463411,0.000308578,0.0056834,-75.9017
276.0000,0.508934,0.000304562,0.00572903,-75.9038
275.5000,0.441809,0.000306639,0.00599641,-75.9021
275.0000,0.430041,0.000300828,0.00612206,-75.9078
274.5000,0.397216,0.000301705,0.00633908,-75.9146
274.0000,0.39074,0.000297271,0.00666237,-75.9065
273.5000,0.316617,0.000296414,0.00704159,-75.9098
273.0000,0.314966,0.000304677,0.00725995,-75.8998
272.5000,0.376159,0.000306161,0.00735776,-75.8957
272.0000,0.442204,0.000317924,0.00750707,-75.8963
271.5000,0.418283,0.000326062,0.00758885,-75.8916
271.0000,0.396696,0.000332937,0.00787357,-75.8813
270.5000,0.346764,0.000338354,0.00806911,-75.8892
270.0000,0.406627,0.000344437,0.00817142,-75.8893
269.5000,0.341155,0.000336872,0.00832423,-75.8877
269.0000,0.335821,0.000335356,0.00856637,-75.8789
268.5000,0.319494,0.000336081,0.00876296,-75.8741
268.0000,0.356638,0.000339801,0.00880585,-75.8717
267.5000,0.287353,0.000342737,0.00856671,-75.8608
267.0000,0.29531,0.000342845,0.00858969,-75.8546
266.5000,0.281234,0.000347558,0.00895916,-75.8548
266.0000,0.343201,0.000343976,0.00907174,-75.8539
265.5000,0.315699,0.000341174,0.00910946,-75.8666
265.0000,0.407343,0.000336973,0.00916969,-75.8589
264.5000,0.385425,0.000325246,0.00927253,-75.8568
264.0000,0.442576,0.000327612,0.00938816,-75.8557
263.5000,0.410898,0.000318101,0.00932462,-75.8555
263.0000,0.353119,0.000327175,0.00920025,-75.8583
262.5000,0.431712,0.000318707,0.0091436,-75.8418
262.0000,0.391706,0.000318115,0.0092225,-75.8407
261.5000,0.308993,0.000320164,0.0092606,-75.8423
261.0000,0.361346,0.000326989,0.00903868,-75.8453
260.5000,0.337349,0.000335521,0.00902933,-75.8517
260.0000,0.389133,0.000335967,0.00927582,-75.8402
259.5000,0.379834,0.000340723,0.00950645,-75.8412
259.0000,0.321292,0.00034443,0.00951667,-75.8374
258.5000,0.39154,0.00034802,0.00970466,-75.8364
258.0000,0.445374,0.000346133,0.0097404,-75.8326
257.5000,0.437956,0.000344501,0.00994046,-75.8229
257.0000,0.394104,0.000336973,0.0100874,-75.8209
256.5000,0.451232,0.000336985,0.00990516,-75.8195
256.0000,0.432237,0.000332545,0.00995917,-75.8134
255.5000,0.572087,0.000332614,0.00991867,-75.8115
255.0000,0.443123,0.000335906,0.00963742,-75.8094
254.5000,0.490601,0.000335255,0.00979656,-75.8091
254.0000,0.551546,0.000333958,0.00965915,-75.8133
253.5000,0.564654,0.000332626,0.0093587,-75.8195
253.0000,0.572863,0.000337652,0.00922161,-75.822
252.5000,0.572502,0.000335998,0.00906113,-75.8286
252.0000,0.38283,0.000336509,0.00898697,-75.8394
251.5000,0.367695,0.000333758,0.00891129,-75.843
251.0000,0.415037,0.000339143,0.0090187,-75.8535
250.5000,0.378355,0.000343024,0.00907246,-75.8581
250.0000,0.374901,0.000332613,0.00943446,-75.8682
249.5000,0.402985,0.000334772,0.00970628,-75.8732
249.0000,0.428265,0.000339378,0.00984878,-75.8829
248.5000,0.434827,0.000341318,0.0100515,-75.8879
248.0000,0.393867,0.000338393,0.010038,-75.8882
247.5000,0.428826,0.000332831,0.00983704,-75.8865
247.0000,0.423882,0.00033182,0.0101161,-75.8868
246.5000,0.440588,0.000332726,0.00996775,-75.8888
246.0000,0.425544,0.000332433,0.0100402,-75.8865
245.5000,0.445808,0.000335241,0.0100332,-75.8841
245.0000,0.404167,0.000330649,0.00998869,-75.8897
244.5000,0.36584,0.000338621,0.0101764,-75.8908
244.0000,0.320947,0.000342541,0.0104022,-75.8959
243.5000,0.315555,0.000347175,0.0103422,-75.8963
243.0000,0.327169,0.000351976,0.0103047,-75.8907
242.5000,0.382994,0.000353353,0.0103872,-75.898
242.0000,0.384683,0.00035185,0.0104009,-75.9062
241.5000,0.377168,0.000351142,0.0104141,-75.9042
241.0000,0.500234,0.000346405,0.0105639,-75.9043
240.5000,0.45514,0.000349681,0.0108815,-75.9033
240.0000,0.432147,0.000347835,0.0114334,-75.9012
239.5000,0.423754,0.000335853,0.0121696,-75.8974
239.0000,0.408619,0.00033085,0.0128669,-75.8864
238.5000,0.441717,0.000337712,0.0138335,-75.8733
238.0000,0.535833,0.000342233,0.0146636,-75.8635
237.5000,0.476637,0.000354245,0.0155667,-75.8461
237.0000,0.585088,0.000361146,0.0163741,-75.8293
236.5000,0.674203,0.000362981,0.0174023,-75.8167
236.0000,0.79976,0.000372314,0.0185763,-75.8005
235.5000,0.853354,0.000374385,0.0199106,-75.7981
235.0000,0.866896,0.000373644,0.0214352,-75.7975
234.5000,0.905875,0.000370467,0.0229208,-75.8016
234.0000,0.933714,0.000357931,0.0248332,-75.8187
233.5000,0.825763,0.000358108,0.0273809,-75.8381
233.0000,0.841599,0.00035121,0.0295105,-75.8407
232.5000,0.919577,0.000349902,0.031389,-75.8539
232.0000,0.888078,0.000349226,0.0331168,-75.8567
231.5000,0.963817,0.000341206,0.0354782,-75.8615
231.0000,0.931572,0.000339872,0.0379023,-75.8596
230.5000,0.951667,0.00034613,0.0403269,-75.8676
230.0000,1.05686,0.000345229,0.0426559,-75.873
229.5000,1.0652,0.000348793,0.0448033,-75.8855
229.0000,1.05964,0.000349431,0.046807,-75.8816
228.5000,1.08458,0.000353446,0.0489134,-75.8873
228.0000,1.1348,0.000356627,0.0508352,-75.8876
227.5000,1.119,0.000361272,0.0526123,-75.8802
227.0000,1.11338,0.000361813,0.0543423,-75.8577
226.5000,1.23722,0.000357715,0.0558694,-75.8502
226.0000,1.1705,0.00034826,0.0574449,-75.8348
225.5000,1.19918,0.00035173,0.0588864,-75.825
225.0000,1.17915,0.000354382,0.0600464,-75.8177
224.5000,1.08075,0.000364104,0.0611228,-75.8048
224.0000,1.21576,0.000372317,0.0620992,-75.808
223.5000,1.09998,0.000382064,0.0627486,-75.8082
223.0000,1.06203,0.000398762,0.0633496,-75.8042
222.5000,1.09722,0.000406299,0.0637981,-75.8066
222.0000,1.07562,0.000411812,0.0644102,-75.8049
221.5000,1.11787,0.000409587,0.064833,-75.8016
221.0000,1.08117,0.000404301,0.0653069,-75.807
220.5000,1.08403,0.00041252,0.0659091,-75.8037
220.0000,1.20455,0.000405977,0.0665576,-75.8031
219.5000,1.20195,0.000413826,0.0671525,-75.8115
219.0000,1.17996,0.000409288,0.0680379,-75.8152
218.5000,1.22947,0.00040762,0.0689576,-75.8263
218.0000,1.2338,0.00041374,0.0699148,-75.8276
217.5000,1.24893,0.000424216,0.0708663,-75.8333
217.0000,1.3323,0.000420426,0.0718224,-75.8409
216.5000,1.19412,0.000430064,0.0729523,-75.8347
216.0000,1.17656,0.000434241,0.0739355,-75.8239
215.5000,1.15615,0.000440497,0.0752756,-75.8028
215.0000,1.06726,0.000445787,0.0769628,-75.7899
214.5000,1.14483,0.000435943,0.0785765,-75.7778
214.0000,1.1096,0.000435605,0.080317,-75.766
213.5000,1.10972,0.000438947,0.0823807,-75.741
213.0000,1.31852,0.000437282,0.0847309,-75.7298
212.5000,1.31991,0.000428724,0.0871069,-75.7205
212.0000,1.45948,0.000427387,0.0896856,-75.7184
211.5000,1.40832,0.000420935,0.0923278,-75.7075
211.0000,1.3137,0.000426826,0.0950612,-75.7003
210.5000,1.24468,0.000414599,0.0986796,-75.6979
210.0000,1.09392,0.000421966,0.10245,-75.7096
209.5000,1.0077,0.000439324,0.106413,-75.7117
209.0000,0.949802,0.000446794,0.110837,-75.7072
208.5000,0.893627,0.000452569,0.115406,-75.704
208.0000,0.867253,0.000475657,0.120552,-75.7022
207.5000,1.00534,0.000473627,0.126668,-75.6925
207.0000,0.968264,0.000489064,0.133686,-75.6669
206.5000,0.937328,0.000485331,0.140659,-75.6405
206.0000,0.841295,0.000486717,0.147809,-75.6226
205.5000,0.792171,0.000497471,0.15716,-75.611
205.0000,0.845348,0.000500199,0.165861,-75.6015
204.5000,0.77998,0.000503744,0.17648,-75.5997
204.0000,0.816882,0.000499929,0.187532,-75.6003
203.5000,0.845284,0.000489963,0.200166,-75.6113
203.0000,0.897041,0.000486971,0.214037,-75.6162
202.5000,0.888705,0.000485222,0.228453,-75.6172
202.0000,0.837008,0.000493605,0.24375,-75.626
201.5000,0.623888,0.00051069,0.261059,-75.6358
201.0000,0.774589,0.000515746,0.279113,-75.6495
200.5000,0.731497,0.000509978,0.297621,-75.6556
200.0000,0.802057,0.000520752,0.316395,-75.6525
199.5000,0.795435,0.000522706,0.335772,-75.6582
199.0000,0.741506,0.000550058,0.354969,-75.6638
198.5000,0.750697,0.000588012,0.373396,-75.6539
198.0000,0.478192,0.00064223,0.390418,-75.6425
197.5000,0.407508,0.000723872,0.407935,-75.6277
197.0000,0.176605,0.000848161,0.424915,-75.6223
196.5000,0.126073,0.00100655,0.440488,-75.5941
196.0000,0.0458847,0.00117648,0.455851,-75.5635
195.5000,0.233196,0.00143135,0.470267,-75.5357
195.0000,0.43151,0.00182666,0.486376,-75.5191
194.5000,1.1994,0.00235937,0.504281,-75.4934
194.0000,1.62958,0.00303282,0.523074,-75.4801
193.5000,2.69792,0.00384325,0.54348,-75.468
193.0000,3.46956,0.00483857,0.567846,-75.4662
192.5000,4.7547,0.00593043,0.597012,-75.4497
192.0000,5.99479,0.00696661,0.627326,-75.45
191.5000,6.79974,0.00800552,0.659613,-75.4425
191.0000,7.73572,0.00901555,0.694671,-75.4419
190.5000,8.60421,0.00982163,0.7263,-75.4425
190.0000,9.53069,0.010453,0.755238,-75.438

##### Extended Information
[Comments]
Sample name,H_02mM_3
Comment
User
Division
Company,CUNY

[Detailed Information]
Creation date,10/27/2022 4:25 PM

Data array type,Linear data array * 4
Horizontal axis,Wavelength [nm]
Vertical axis(1),CD [mdeg]
Vertical axis(2),LD [dOD]
Vertical axis(3),Abs
Vertical axis(4),HT [V]
Start,290 nm
End,190 nm
Data interval,0.5 nm
Data points,201     

[Measurement Information]
Instrument name,Jasco J-1500 CD
Model name,J-1500
Serial No.,A009361638

Detector,PM-539
Detector S/N,A0093PM539
  Lock-in amp.,X mode
  HT volt,Auto

Detector,FDT-538
Detector S/N,A002061637
  Lock-in amp.,X mode
  HT volt,0 V

Accessory,PTC-517
Accessory S/N,A005061646
  Temperature,25.03 C
  Control sonsor,Holder
  Monitor sensor,Holder
  Start Mode,Keep target temperature +/-0.50 deg C while 10 seconds
  Timeout,1 sec

Measurement date,10/27/2022 4:25 PM

Overload detect,152
Photometric mode,CD, LD, Abs, HT(FL)
Measure range,290 - 190 nm
Data pitch,0.5 nm
CD scale,20 mdeg/0.05 dOD
FL scale,20 mdeg/0.05 dOD
D.I.T.,2 sec
Bandwidth,1.00 nm
Start mode,Immediately
Scanning speed,100 nm/min
Baseline correction,Baseline
Shutter control,Auto
Accumulations,3


